{
  "resourceType": "Bundle",
  "type": "collection",
  "entry": [
    {
      "fullUrl": "urn:uuid:d0d0e7b0-4b07-4c0a-9f9f-6e6b9b6b9b6b",
      "resource": {
        "resourceType": "Patient",
        "id": "d0d0e7b0-4b07-4c0a-9f9f-6e6b9b6b9b6b",
        "name": [
          {
            "use": "official",
            "family": "Doe",
            "given": [
              "John"
            ]
          }
        ],
        "gender": "male",
        "birthDate": "1990-01-01",
        "maritalStatus": {
          "coding": [
            {
              "system": "http://terminology.hl7.org/CodeSystem/v3-MaritalStatus",
              "code": "M",
              "display": "Married"
            }
          ]
        },
        "multipleBirthInteger": 1,
        "communication": [
          {
            "language": {
              "coding": [
                {
                  "system": "urn:ietf:bcp:47",
                  "code": "en-US",
                  "display": "English (United States)"
                }
              ]
            },
            "preferred": true
          }
        ],
        "generalPractitioner": [
          {
            "reference": "urn:uuid:e7f3e7b0-4b07-4c0a-9f9f-6e6b9b6b9b6b"
          }
        ]
      }
    },
    {
      "fullUrl": "urn:uuid:e7f3e7b0-4b07-4c0a-9f9f-6e6b9b6b9b6b",
      "resource": {
        "resourceType": "Practitioner",
        "id": "e7f3e7b0-4b07-4c0a-9f9f-6e6b9b6b9b6b",
        "identifier": [
          {
            "system": "http://hl7.org/fhir/sid/us-npi",
            "value": "1234567890"
          }
        ],
        "name": [
          {
            "family": "Smith",
            "given": [
              "Jane"
            ],
            "prefix": [
              "Dr."
            ]
          }
        ]
      }
    },
    {
      "fullUrl": "urn:uuid:f0f0f7b0-4b07-4c0a-9f9f-6e6b9b6b9b6b",
      "resource": {
        "resourceType": "Condition",
        "id": "f0f0f7b0-4b07-4c0a-9f9f-6e6b9b6b9b6b",
        "clinicalStatus": {
          "coding": [
            {
              "system": "http://terminology.hl7.org/CodeSystem/condition-clinical",
              "code": "active"
            }
          ]
        },
        "verificationStatus": {
          "coding": [
            {
              "system": "http://terminology.hl7.org/CodeSystem/condition-ver-status",
              "code": "confirmed"
            }
          ]
        },
        "code": {
          "coding": [
            {
              "system": "http://snomed.info/sct",
              "code": "44054006",
              "display": "Diabetes mellitus type 2 (disorder)"
            }
          ]
        },
        "subject": {
          "reference": "urn:uuid:d0d0e7b0-4b07-4c0a-9f9f-6e6b9b6b9b6b"
        },
        "onsetDateTime": "2010-01-01"
      }
    },
    {
      "fullUrl": "urn:uuid:g1g1g7b0-4b07-4c0a-9f9f-6e6b9b6b9b6b",
      "resource": {
        "resourceType": "MedicationRequest",
        "id": "g1g1g7b0-4b07-4c0a-9f9f-6e6b9b6b9b6b",
        "status": "active",
        "intent": "order",
        "medicationCodeableConcept": {
          "coding": [
            {
              "system": "http://www.nlm.nih.gov/research/umls/rxnorm",
              "code": "860975",
              "display": "Metformin 500 MG Oral Tablet"
            }
          ]
        },
        "subject": {
          "reference": "urn:uuid:d0d0e7b0-4b07-4c0a-9f9f-6e6b9b6b9b6b"
        },
        "authoredOn": "2022-01-01",
        "requester": {
          "reference": "urn:uuid:e7f3e7b0-4b07-4c0a-9f9f-6e6b9b6b9b6b"
        },
        "dosageInstruction": [
          {
            "text": "Take 1 tablet by mouth twice daily with meals",
            "timing": {
              "repeat": {
                "frequency": 2,
                "period": 1,
                "periodUnit": "d"
              }
            },
            "route": {
              "coding": [
                {
                  "system": "http://snomed.info/sct",
                  "code": "26643006",
                  "display": "Oral route (qualifier value)"
                }
              ]
            },
            "method": {
              "coding": [
                {
                  "system": "http://snomed.info/sct",
                  "code": "421521009",
                  "display": "Swallow - dosing instruction imperative (qualifier value)"
                }
              ]
            },
            "doseAndRate": [
              {
                "type": {
                  "coding": [
                    {
                      "system": "http://terminology.hl7.org/CodeSystem/dose-rate-type",
                      "code": "ordered",
                      "display": "Ordered"
                    }
                  ]
                },
                "doseQuantity": {
                  "value": 1,
                  "unit": "tablet",
                  "system": "http://unitsofmeasure.org",
                  "code": "{tbl}"
                }
              }
            ]
          }
        ]
      }
    },
    {
      "fullUrl": "urn:uuid:h2h2h7b0-4b07-4c0a-9f9f-6e6b9b6b9b6b",
      "resource": {
        "resourceType": "Observation",
        "id": "h2h2h7b0-4b07-4c0a-9f9f-6e6b9b6b9b6b",
        "status": "final",
        "code": {
          "coding": [
            {
              "system": "http://loinc.org",
              "code": "4548-4",
              "display": "Hemoglobin A1c/Hemoglobin.total in Blood"
            }
          ]
        },
        "subject": {
          "reference": "urn:uuid:d0d0e7b0-4b07-4c0a-9f9f-6e6b9b6b9b6b"
        },
        "effectiveDateTime": "2022-03-15",
        "valueQuantity": {
          "value": 7.5,
          "unit": "%",
          "system": "http://unitsofmeasure.org",
          "code": "%"
        }
      }
    },
    {
      "fullUrl": "urn:uuid:i3i3i7b0-4b07-4c0a-9f9f-6e6b9b6b9b6b",
      "resource": {
        "resourceType": "Immunization",
        "id": "i3i3i7b0-4b07-4c0a-9f9f-6e6b9b6b9b6b",
        "status": "completed",
        "vaccineCode": {
          "coding": [
            {
              "system": "http://hl7.org/fhir/sid/cvx",
              "code": "140",
              "display": "Influenza, seasonal, injectable, preservative free"
            }
          ]
        },
        "patient": {
          "reference": "urn:uuid:d0d0e7b0-4b07-4c0a-9f9f-6e6b9b6b9b6b"
        },
        "occurrenceDateTime": "2021-10-01",
        "primarySource": true,
        "location": {
          "reference": "urn:uuid:j4j4j7b0-4b07-4c0a-9f9f-6e6b9b6b9b6b"
        }
      }
    },
    {
      "fullUrl": "urn:uuid:j4j4j7b0-4b07-4c0a-9f9f-6e6b9b6b9b6b",
      "resource": {
        "resourceType": "Location",
        "id": "j4j4j7b0-4b07-4c0a-9f9f-6e6b9b6b9b6b",
        "name": "Local Pharmacy",
        "address": {
          "line": [
            "123 Main St"
          ],
          "city": "Anytown",
          "state": "CA",
          "postalCode": "12345"
        }
      }
    },
    {
      "fullUrl": "urn:uuid:k5k5k7b0-4b07-4c0a-9f9f-6e6b9b6b9b6b",
      "resource": {
        "resourceType": "Encounter",
        "id": "k5k5k7b0-4b07-4c0a-9f9f-6e6b9b6b9b6b",
        "status": "finished",
        "class": {
          "system": "http://terminology.hl7.org/CodeSystem/v3-ActCode",
          "code": "AMB",
          "display": "ambulatory"
        },
        "type": [
          {
            "coding": [
              {
                "system": "http://snomed.info/sct",
                "code": "185349003",
                "display": "Encounter for check up (procedure)"
              }
            ]
          }
        ],
        "subject": {
          "reference": "urn:uuid:d0d0e7b0-4b07-4c0a-9f9f-6e6b9b6b9b6b"
        },
        "period": {
          "start": "2022-03-15T10:00:00-07:00",
          "end": "2022-03-15T11:00:00-07:00"
        },
        "serviceProvider": {
          "reference": "urn:uuid:l6l6l7b0-4b07-4c0a-9f9f-6e6b9b6b9b6b"
        }
      }
    }
  ]
}
